Folder: c-semp_pollen_e-beam/ftir_visualization/zimmerman_data/data

File: zimmer_pinales_ftir_abs_ave.csv
Platycladus orientalis,Thujopsis dolabrata,Chamaecyparis lawsoniana,Chamaecyparis obtusa,Chamaecyparis pisifera,Juniperus chinensis,Juniperus virginiana,Juniperus sabina,Juniperus phoenicea,Juniperus communis,Juniperus oxycedrus,Juniperus excelsa,Calocedrus decurrens,Cupressus sempervirens,Cupressus sargentii,Cupressus x leylandii,Cunninghamia lancelota,Cryptomeria japonica,Thuja occidentalis,Thuja standishii,Taxodium distichum,Metasequoia glyptostroboides,Taxus baccata,Taxus cuspidata,Cephalotaxus harringtonia,Torreya californica,Abies koreana,Abies pinsapo,Abies cephalonica,Picea abies,Picea asperata,Picea omorika,Picea chihuahuana,Picea orientalis,Picea smithiana,Picea pungens,Tsuga canadensis,Pinus pinea,Pinus mugo,Pinus sylvestris,Pinus tabuliformis,Pinus banksiana,Pinus pinaster,Pinus densiflora,Pinus nigra,Pinus ponderosa,Pinus resinosa,Pinus wallichiana,Pinus bungeana,Pinus strobus,Pinus peuce,Pinus heldreichii,Podocarpus neriifolius,Abies nordmanniana,Pinus armandii,Thuja koraiensis,Cedrus atlantica
0.084918,0.0941351,0.0811961,0.0870734,0.0808092,0.0748845,0.0790168,0.1242,0.0917495,0.00159492,0.0708126,0.1145,0.12358,0.0763275,0.113047,0.114806,0.0690973,0.0695998,0.0993727,0.0950438,0.0572829,0.115523,0.071882,0.0737093,0.0687584,0.071737,0.0992763,0.0680006,0.0846583,0.0523821,0.101634,0.0556009,0.0720708,0.0659817,0.0610033,0.0802787,0.0956499,0.0742419,0.0469483,0.04374,0.0958304,0.0945535,0.0996792,0.0728156,0.0402659,0.0596406,0.0966077,0.0703576,0.0881169,0.0715183,0.113794,0.105455,0.0963073,0.0946503,0.0958304,0.059908,0.107758
0.143143,0.166495,0.135458,0.146641,0.141978,0.138354,0.140425,0.26232,0.170258,0.0409521,0.122261,0.25772,0.231017,0.127469,0.211676,0.207651,0.110579,0.114085,0.185823,0.172983,0.0972024,0.233157,0.154909,0.154168,0.173494,0.18226,0.21143,0.128261,0.166696,0.134607,0.181327,0.101475,0.140442,0.124802,0.105757,0.149407,0.177837,0.147499,0.112658,0.147148,0.176527,0.186661,0.182436,0.148482,0.140329,0.15844,0.19807,0.17758,0.17529,0.16722,0.190817,0.192935,0.15865,0.17175,0.176527,0.113786,0.17387
0.0667526,0.0730124,0.0574535,0.0599307,0.0565672,0.0639674,0.05779,0.11311,0.0610652,0.0260956,0.0457844,0.095285,0.113803,0.0463568,0.076711,0.0809558,0.0544559,0.0581451,0.0734704,0.0772,0.0364822,0.109871,0.0365543,0.0452236,0.043925,0.0453402,0.18933,0.147426,0.176436,0.113315,0.143021,0.0818949,0.129993,0.111326,0.111538,0.129679,0.189501,0.132674,0.0839224,0.102054,0.143544,0.145001,0.154037,0.115882,0.0861801,0.136439,0.154395,0.126065,0.164276,0.140517,0.176952,0.143069,0.186,0.170629,0.143544,0.0621743,0.159505
0.0591547,0.0688488,0.0526074,0.0521193,0.0473703,0.0467399,0.0422917,0.091713,0.0572296,0.0302871,0.040995,0.074848,0.0895567,0.0434842,0.0615046,0.0610254,0.040656,0.0381974,0.0666494,0.0662249,0.0300979,0.0844038,0.0311948,0.0373912,0.0336153,0.0348893,0.0901753,0.0633837,0.0795734,0.0417517,0.0847167,0.032248,0.0594353,0.0508826,0.0511084,0.0645708,0.0868871,0.0535839,0.024266,0.0202894,0.0776823,0.0733941,0.0794592,0.0546028,0.0174886,0.0519764,0.0802955,0.0591947,0.0769477,0.068049,0.101536,0.0847122,0.106951,0.085264,0.0776823,0.0351047,0.0940692
0.0332837,0.0418819,0.0212365,0.016301,0.0187604,0.0204501,0.0156609,0.04285,0.0256069,0.0514993,0.01761,0.0226276,0.0430077,0.0189534,0.0118431,0.017262,0.013213,0.0120718,0.0318582,0.0276822,0.0137959,0.0318459,0.00629964,0.0120901,0.00931487,0.00863607,0.0433787,0.0211496,0.0286672,0.00627642,0.0415712,0.0219681,0.0214555,0.0167545,0.0154728,0.0240608,0.043839,0.0152497,0.0124182,0.0253107,0.0365064,0.0383869,0.0368365,0.0161683,0.0202217,0.00788374,0.0318363,0.0197846,0.0322406,0.028936,0.0630359,0.0456007,0.0643283,0.0409251,0.0365064,0.00664922,0.0559128
0.040865,0.0383894,0.0225819,0.0231173,0.0152355,0.0255846,0.0161109,0.052966,0.0211919,0.0520005,0.0181373,0.0412682,0.0403127,0.019348,0.0224649,0.0154438,0.0164346,0.0146162,0.0295182,0.0262931,0.0112998,0.0378103,0.00365371,0.00906959,0.0107064,0.0145164,0.0330153,0.0273582,0.0367905,0.00808221,0.0378257,0.023602,0.0219454,0.0117866,0.018366,0.0242428,0.0419691,0.0199777,0.0174707,0.0347084,0.0350529,0.0187254,0.0333802,0.0120093,0.038348,0.00718889,0.0227492,0.0183996,0.0285245,0.0203533,0.0587541,0.0229043,0.0241673,0.048428,0.0350529,0.00676245,0.0294997
0.0135619,0.0159586,0.00224687,0.000434077,0.00496159,0.00364673,0.0047224,0.00196683,0.00512069,0.0722734,0.00339085,0.0100727,0.00156653,0.00378038,0.00608,0.0250012,0.0040172,0.00261192,0.00321571,0.0056628,0.0055661,0.00766085,0.0178775,0.0142668,0.0352506,0.0389719,0.000966667,0.00268258,0.00927867,0.0337869,0.0148989,0.0318541,0.00407677,0.0101472,0.00557528,0.00993248,0.0119041,0.00858003,0.039648,0.0668954,0.0152598,0.0109542,0.0221708,0.0153634,0.0674941,0.0215376,0.00779202,0.0152958,0.00420576,0.00416667,0.031747,0.00603086,0.00297033,0.0181409,0.0152598,0.0230285,0.00526667
0.013044,0.0138769,0.00197832,0.000130269,0.00541699,0.00609378,0.00461852,0.00208687,0.00503583,0.0715732,0.00359035,0.012846,0.00120033,0.00339034,0.00300067,0.0223889,0.00318422,0.00417361,0.00351355,0.00707313,0.00829528,0.0101779,0.0141398,0.00950747,0.0315871,0.0435496,0.0027,0.00349899,0.0100554,0.0389732,0.0120401,0.0293479,0.0031588,0.0107319,0.0057767,0.0100265,0.0115426,0.0110096,0.0374308,0.0656787,0.0146323,0.0131417,0.0229077,0.0200267,0.0654026,0.0258433,0.0110795,0.0156701,0.00510243,0.0046,0.030581,0.00789489,0.00165697,0.0185809,0.0146323,0.0237783,0.0046
0.0157015,0.019355,0.0030468,0.00306825,0.00448632,0.00149054,0.00261149,0.00387297,0.00292263,0.0670444,0.0041093,0.00749096,0.00313117,0.00318424,0.00158778,0.0215428,0.00154865,0.000491898,0.00116803,0.00166803,0.00186322,0.00686363,0.0108075,0.00815619,0.0226158,0.0358139,0.00156667,0.00405696,0.00800223,0.0325891,0.0140599,0.029538,0.00338835,0.00721595,0.00143883,0.00823186,0.0133717,0.00859593,0.0356487,0.0622431,0.0170194,0.00735376,0.0206716,0.0119408,0.061082,0.0177484,0.0072553,0.012623,0.00533672,0.00166667,0.0361154,0.00384027,0.0069525,0.0183682,0.0170194,0.0193518,0.0014
0.0143889,0.0185145,0.000860268,0.00240831,0.0040852,0.000635835,0.00463542,0.00406403,0.00131881,0.0675413,0.00300028,0.00603647,0.00458577,0.00290927,0.00171912,0.0220584,0.00255906,0.00436397,0.000954074,0.00207752,0.00447631,0.00443456,0.01404,0.0106498,0.0252728,0.0378836,0.000685967,0.00343339,0.00800969,0.0323743,0.0118999,0.030071,0.000752218,0.00791137,0.00414507,0.0101692,0.0120004,0.00954807,0.0352079,0.0628685,0.0142821,0.00637144,0.0214442,0.0174087,0.0631577,0.0224435,0.00883569,0.0150422,0.00478112,0.000420233,0.0355216,0.00338235,0.0086583,0.0179632,0.0142821,0.0245947,0.000933567
0.021031,0.026613,0.0101809,0.00979438,0.00195386,0.0045935,0.00154603,0.0108006,0.0082655,0.0615771,0.00719672,0.000641485,0.0116286,0.00742879,0.00404442,0.0134405,0.00517618,0.00113234,0.00947785,0.00597554,0.0015162,0.00317687,0.0065202,0.00376167,0.01937,0.0279071,0.0083735,0.00830313,0.0119455,0.0259507,0.0184673,0.0273129,0.00661306,0.00267824,0.00365805,0.00804342,0.0151427,0.00629989,0.0286698,0.0532057,0.020118,0.0016486,0.0172047,0.00712602,0.0528104,0.0157466,0.00754713,0.0118988,0.00882325,0.0074903,0.042614,0.00665396,0.0167133,0.0233852,0.020118,0.0178795,0.009704
0.0301055,0.0371388,0.017445,0.0207886,0.013704,0.0168353,0.0140643,0.035233,0.0210735,0.0545864,0.0143013,0.0222017,0.0368833,0.015527,0.0228871,0.0108069,0.0117074,0.0112564,0.0226456,0.0207665,0.00622741,0.0242088,0.0037011,0.00634119,0.0115702,0.0115642,0.0392747,0.0290116,0.0378499,0.00263887,0.0413195,0.0239741,0.0257248,0.0198024,0.0239572,0.0301657,0.0392352,0.0176755,0.00979943,0.0253993,0.0385591,0.0238273,0.0341841,0.0153943,0.0280637,0.0137548,0.0330375,0.0218983,0.034026,0.029912,0.0622618,0.0327724,0.0427613,0.0467096,0.0385591,0.00601575,0.0408527
0.0263547,0.0324732,0.0141182,0.0149734,0.00982398,0.00835453,0.00608786,0.0244247,0.0140739,0.0578288,0.0104423,0.012331,0.026772,0.0115062,0.0112962,0.00406737,0.00734635,0.00462717,0.0207113,0.0185072,0.00393948,0.0173322,0.00342462,0.00337936,0.0137171,0.017513,0.020621,0.0115141,0.0180462,0.0169027,0.0275172,0.0222004,0.0114993,0.0167631,0.01079,0.0201344,0.0214033,0.00422474,0.0203209,0.0387572,0.0271152,0.0101524,0.0218908,0.00316701,0.0379725,0.0120876,0.0181484,0.0165896,0.0168252,0.0156207,0.0473847,0.021111,0.027599,0.0269718,0.0271152,0.0133374,0.038212
0.0479465,0.0584148,0.0385305,0.0391774,0.0283751,0.0219433,0.0206524,0.0590137,0.0405801,0.0436627,0.0254184,0.0478032,0.065939,0.0290744,0.0450621,0.0409881,0.0212399,0.0137494,0.0516268,0.0502983,0.0146229,0.0464872,0.017107,0.0199308,0.00875864,0.0134687,0.0476893,0.0295254,0.0373083,0.00970784,0.0525103,0.0266031,0.0287234,0.0468385,0.0263677,0.0381444,0.0410297,0.0202055,0.00246217,0.00950616,0.043873,0.0382253,0.0466652,0.0266348,0.0150165,0.0185957,0.0479531,0.0318054,0.0401006,0.0389287,0.0690567,0.054005,0.0482183,0.0467374,0.043873,0.00719726,0.091045
0.0518298,0.060096,0.0414826,0.0473092,0.0304804,0.0254448,0.0250215,0.0698887,0.0425111,0.0424036,0.0269384,0.0570386,0.0749063,0.0323568,0.0532576,0.0484967,0.025405,0.0209722,0.053115,0.0565589,0.017101,0.0548847,0.0207476,0.0241159,0.0181898,0.0156638,0.0613063,0.0391998,0.0504746,0.0192537,0.06163,0.0288304,0.0385122,0.0495199,0.0376112,0.0494151,0.041432,0.0248395,0.00655296,0.00633155,0.0495101,0.0477322,0.0535523,0.0341429,0.0117495,0.0317778,0.0594553,0.0429812,0.0517487,0.0493657,0.0755724,0.0627324,0.054613,0.0540703,0.0495101,0.00369143,0.0969797
0.0236024,0.0271983,0.00659568,0.0072168,0.00405843,0.00128589,0.00171174,0.016288,0.00270609,0.0622404,0.00256397,0.00850309,0.016094,0.0026511,0.00571913,0.00684743,0.00345051,0.000576799,0.00667187,0.0112611,0.0012557,0.00636314,0.00825676,0.00308355,0.0228807,0.0333047,0.0115797,0.00745489,0.013459,0.0267318,0.01611,0.0256371,0.00680773,0.00332195,0.00063338,0.0107352,0.0160707,0.00738776,0.0264947,0.046688,0.0188796,0.00206518,0.014204,0.00750093,0.0460084,0.0154751,0.00667638,0.0127435,0.00755132,0.00741547,0.0404747,0.00457901,0.01522,0.0223492,0.0188796,0.0183339,0.018146
0.00771193,0.0130603,0.000624325,0.00783309,0.0110414,0.00883855,0.0117673,0.00546667,0.0089509,0.0729954,0.00666486,0.0166286,0.0039,0.00624609,0.0125541,0.0286664,0.00769892,0.00814362,0.00749102,0.00714815,0.00682143,0.0138336,0.0172392,0.0139873,0.0331996,0.0454029,0.00616667,0.00275316,0.00780519,0.0369632,0.0123219,0.0305299,0.000885331,0.0131397,0.00602747,0.00990321,0.0107451,0.0131503,0.0390194,0.0649429,0.0145021,0.0120148,0.0212245,0.014997,0.0628252,0.0197856,0.00846619,0.0132889,0.00312289,0.00453333,0.0328243,0.00901169,0.00115637,0.0158424,0.0145021,0.0243196,0.0112667
0.00882373,0.0128916,0.00122742,0.00556657,0.00968198,0.00427554,0.00984642,0.0048,0.00410532,0.0701717,0.00283888,0.0124122,0.0041,0.00540351,0.00760521,0.025986,0.00529317,0.0117084,0.00232425,0.00554949,0.00686477,0.0122178,0.0165708,0.015468,0.0494143,0.0412528,0.00433333,0.0021214,0.0089749,0.0356747,0.0108596,0.0320539,0.0042761,0.0125379,0.00882281,0.00994592,0.0115872,0.0113014,0.0372506,0.0617009,0.0130205,0.0147776,0.0224668,0.0189451,0.0609109,0.0229328,0.0086472,0.0150893,0.00372295,0.00363333,0.0270388,0.0128858,0.0008247,0.0159964,0.0130205,0.0283873,0.00966667
0.00938763,0.0141745,0.00460783,0.00384812,0.00794937,0.00566611,0.00981811,0.00423333,0.00404581,0.0709358,0.00308265,0.0170732,0.0041,0.00395641,0.0114416,0.0286654,0.00567729,0.00984678,0.00629372,0.00777206,0.00927826,0.0133287,0.0210089,0.0181836,0.0331802,0.0426972,0.0042,0.0039911,0.00998965,0.0355588,0.011818,0.0322699,0.00673456,0.0159504,0.00681463,0.00968799,0.010496,0.0137826,0.0410661,0.0678728,0.0144928,0.0187378,0.0227242,0.0185214,0.0681653,0.0219225,0.00964712,0.0147559,0.00486175,0.00673333,0.0257348,0.0145171,0.00104917,0.0144063,0.0144928,0.027868,0.00986667